{
    "resourceType": "Bundle",
    "id": "9b96369b-4628-4f95-a5e9-3443d60b6687",
    "meta": {
        "profile": [
            "http://medcomfhir.dk/fhir/core/1.0/StructureDefinition/medcom-careCommunication-message"
        ]
    },
    "type": "message",
    "timestamp": "2022-02-08T13:16:29.854+01:00",
    "entry": [
        {
            "fullUrl": "MessageHeader/4126f1c9-94bc-4680-86e9-cbb78e34b9f5",
            "resource": {
                "resourceType": "MessageHeader",
                "id": "4126f1c9-94bc-4680-86e9-cbb78e34b9f5",
                "eventCoding": {
                    "system": "http://medcomfhir.dk/fhir/core/1.0/CodeSystem/medcom-messaging-eventCodes",
                    "code": "care-communication-message"
                },
                "destination": [
                    {
                        "extension": [
                            {
                                "url": "http://medcomfhir.dk/fhir/core/1.0/StructureDefinition/medcom-messaging-destinationUseExtension",
                                "valueCoding": {
                                    "system": "http://medcomfhir.dk/fhir/core/1.0/CodeSystem/medcom-messaging-destinationUse",
                                    "code": "primary"
                                }
                            }
                        ],
                        "endpoint": "http://medcomfhir.dk/unknown",
                        "receiver": {
                            "reference": "Organization/b0f903de-267a-4fa7-9ce9-3bf660974cc0"
                        }
                    }
                ],
                "sender": {
                    "reference": "Organization/5e64e7b8-8656-4b5f-a33b-be588e314e94"
                },
                "source": {
                    "endpoint": "http://medcomfhir.dk/unknown"
                },
                "focus": [
                    {
                        "reference": "Communication/c4354e97-51e8-4b1e-befa-298864cd692a"
                    }
                ]
            }
        },
        {
            "fullUrl": "Organization/5e64e7b8-8656-4b5f-a33b-be588e314e94",
            "resource": {
                "resourceType": "Organization",
                "id": "5e64e7b8-8656-4b5f-a33b-be588e314e94",
                "identifier": [
                    {
                        "system": "urn:oid:1.2.208.176.1.1",
                        "value": "22334455667788"
                    },
                    {
                        "system": "urn:oid:1.3.88",
                        "value": "ewgazvraezb"
                    }
                ],
                "name": "dfgdsf"
            }
        },
        {
            "fullUrl": "Organization/b0f903de-267a-4fa7-9ce9-3bf660974cc0",
            "resource": {
                "resourceType": "Organization",
                "id": "b0f903de-267a-4fa7-9ce9-3bf660974cc0",
                "identifier": [
                    {
                        "system": "urn:oid:1.2.208.176.1.1",
                        "value": "22334455667788"
                    },
                    {
                        "system": "urn:oid:1.3.88",
                        "value": "grgare"
                    }
                ],
                "name": "gjdytikj7ytn"
            }
        },
        {
            "fullUrl": "Patient/646b73eb-a1dd-436e-b604-51ae2efc9010",
            "resource": {
                "resourceType": "Patient",
                "id": "646b73eb-a1dd-436e-b604-51ae2efc9010",
                "identifier": [
                    {
                        "system": "urn:oid:1.2.208.176.1.2",
                        "value": "0506504005"
                    }
                ],
                "name": [
                    {
                        "use": "official",
                        "family": "jytrjtyjytrj",
                        "given": [
                            "jytrjtyjytrj"
                        ]
                    }
                ],
                "deceasedBoolean": false,
                "address": [
                    {
                        "line": [
                            "tretwertret"
                        ],
                        "city": "htrhsht",
                        "postalCode": "erqtwrtwry"
                    }
                ]
            }
        },
        {
            "fullUrl": "Practitioner/f390c323-6dfb-4eb2-a428-646c0b5dfbc0",
            "resource": {
                "resourceType": "Practitioner",
                "id": "f390c323-6dfb-4eb2-a428-646c0b5dfbc0",
                "name": [
                    {
                        "family": "Burns",
                        "given": [
                            "Michael"
                        ]
                    }
                ]
            }
        },
        {
            "fullUrl": "Provenance/57358c2a-5e2e-4490-9693-8a4b877b74fa",
            "resource": {
                "resourceType": "Provenance",
                "id": "57358c2a-5e2e-4490-9693-8a4b877b74fa",
                "target": [
                    {
                        "reference": "MessageHeader/4126f1c9-94bc-4680-86e9-cbb78e34b9f5"
                    }
                ],
                "occurredDateTime": "2022-02-08T13:16:29+01:00",
                "recorded": "2022-02-08T13:16:29.850+01:00",
                "activity": {
                    "coding": [
                        {
                            "system": "http://medcomfhir.dk/fhir/core/1.0/CodeSystem/medcom-messaging-activityCodes",
                            "code": "new-message"
                        }
                    ]
                },
                "agent": [
                    {
                        "who": {
                            "reference": "Organization/5e64e7b8-8656-4b5f-a33b-be588e314e94"
                        }
                    }
                ]
            }
        },
        {
            "fullUrl": "Communication/c4354e97-51e8-4b1e-befa-298864cd692a",
            "resource": {
                "resourceType": "Communication",
                "id": "c4354e97-51e8-4b1e-befa-298864cd692a",
                "status": "unknown",
                "category": [
                    {
                        "coding": [
                            {
                                "system": "http://medcomfhir.dk/fhir/core/1.0/CodeSystem/medcom-careCommunication-categoryCodes",
                                "code": "carecoordination"
                            }
                        ]
                    }
                ],
                "subject": {
                    "reference": "Patient/646b73eb-a1dd-436e-b604-51ae2efc9010"
                },
                "sent": "2022-02-08T13:16:29+01:00",
                "payload": [
                    {
                        "extension": [
                            {
                                "url": "http://medcomfhir.dk/fhir/core/1.0/StructureDefinition/medcom-core-datetime-extension",
                                "valueDateTime": "2022-02-08T13:16:29+01:00"
                            },
                            {
                                "url": "http://medcomfhir.dk/fhir/core/1.0/StructureDefinition/medcom-core-author-extension",
                                "valueReference": {
                                    "reference": "Practitioner/f390c323-6dfb-4eb2-a428-646c0b5dfbc0"
                                }
                            }
                        ],
                        "contentString": "tjytyjtyjdtyj"
                    }
                ]
            }
        }
    ]
}